Folder: raman-tools/public/examples

Note: README.md
# boilerplate-meteor
Heroku Compatible Meteor Boilerplate with FlowRouter, Materialize and other default goodies

File: polystyrene-irug.csv
Wavenumber,Intensity
200,0.529617
210.985,0.590477
221.971,0.651418
232.956,0.562147
243.941,0.338989
254.927,0.230621
265.912,0.14458
276.897,0.136616
287.883,0.138657
298.868,0.11007
309.854,0.11651
320.839,0.10168
331.824,0.110562
342.81,0.08857897
353.795,0.1074594
364.78,0.09801202
375.766,0.09856069
386.751,0.112624
397.736,0.139446
408.722,0.176801
419.707,0.143144
430.692,0.1261959
441.678,0.08505988
452.663,0.09804692
463.648,0.07121011
474.634,0.07460398
485.619,0.05656514
496.605,0.06055537
507.59,0.06891744
518.575,0.08105386
529.561,0.08060247
540.546,0.103728
551.531,0.113652
562.517,0.08953495
573.502,0.09211382
584.487,0.08747842
595.473,0.06557091
606.458,0.08056372
617.443,0.154407
628.429,0.2015142
639.414,0.07836328
650.399,0.05373353
661.385,0.05259619
672.37,0.04375558
683.356,0.03652598
694.341,0.04601119
705.326,0.0669778
716.312,0.04433762
727.297,0.05134808
738.282,0.1159363
749.268,0.164116
760.253,0.217048
771.238,0.1785694
782.224,0.185209
793.209,0.3439336
804.194,0.314194
815.18,0.158669
826.165,0.08221178
837.15,0.106125
848.136,0.111477
859.121,0.09264635
870.107,0.103411
881.092,0.0794666
892.077,0.08949726
903.063,0.100709
914.048,0.112188
925.033,0.06067268
936.019,0.0669356
947.004,0.10772
957.989,0.09294898
968.975,0.121963
979.96,0.165024
990.945,0.413782
1001.93,3.39116
1012.92,0.341913
1023.9,0.250957
1034.89,1.06007
1045.87,0.2408
1056.86,0.168286
1067.84,0.18866
1078.83,0.190047
1089.81,0.174931
1100.8,0.162674
1111.78,0.108551
1122.77,0.0822762
1133.75,0.06436967
1144.74,0.133919
1155.73,0.482592
1166.71,0.205412
1177.7,0.307155
1188.68,0.516092
1199.67,0.550492
1210.65,0.3841094
1221.64,0.197015
1232.62,0.127269
1243.61,0.123412
1254.59,0.0986005
1265.58,0.09054989
1276.56,0.103966
1287.55,0.109457
1298.54,0.129694
1309.52,0.1507572
1320.51,0.196656
1331.49,0.21226
1342.48,0.157053
1353.46,0.117289
1364.45,0.111064
1375.43,0.09914564
1386.42,0.06580755
1397.4,0.05121846
1408.39,0.04645855
1419.37,0.04463202
1430.36,0.05978865
1441.34,0.156453
1452.33,0.274937
1463.32,0.08567181
1474.3,0.05128163
1485.29,0.03765866
1496.27,0.07293595
1507.26,0.03751749
1518.24,0.04229542
1529.23,0.04357028
1540.21,0.05201304
1551.2,0.04968016
1562.18,0.06624795
1573.17,0.09048848
1584.15,0.516422
1595.14,0.267628
1606.13,0.833577
1617.11,0.115261
1628.1,0.07353381
1639.08,0.0506315
1650.07,0.0289473
1661.05,0.03634902
1672.04,0.03193794
1683.02,0.0369147
1694.01,0.034728
1704.99,0.02259793
1715.98,0.03172056
1726.96,0.03380557
1737.95,0.03052697
1748.93,0.02374344
1759.92,0.0250402
1770.91,0.02908726
1781.89,0.02534442
1792.88,0.02954045
1803.86,0.04785205
1814.85,0.03568749
1825.83,0.02369226
1836.82,0.03067774
1847.8,0.01886141
1858.79,0.03156621
1869.77,0.02878901
1880.76,0.01235307
1891.74,0.01498265
1902.73,0.01690209
1913.72,0.02391319
1924.7,0.02769849
1935.69,0.03051521
1946.67,0.02397483
1957.66,0.02556202
1968.64,0.03409803
1979.63,0.03781167
1990.61,0.02675091
2001.6,0.02969143
2012.58,0.03058751
2023.57,0.02740104
2034.55,0.02757691
2045.54,0.01366087
2056.52,0.0339848
2067.51,0.0306884
2078.5,0.02243388
2089.48,0.01489644
2100.47,0.01335427
2111.45,0.00857619
2122.44,0.03429901
2133.42,0.01081846
2144.41,0.00887305
2155.39,0.01771478
2166.38,0.02033444
2177.36,0.03726565
2188.35,0.03425709
2199.33,0.03735621
2210.32,0.007111
2221.3,0.01224943
2232.29,0.01919603
2243.28,0.01822087
2254.26,0.02254091
2265.25,0.01636841
2276.23,0.02032128
2287.22,0.01554944
2298.2,0.0252181
2309.19,0.02141877
2320.17,0.00839624
2331.16,0.02069934
2342.14,0.02964519
2353.13,0.01366345
2364.11,0.01582987
2375.1,0.01118537
2386.09,0.03268081
2397.07,0.02504076
2408.06,0.02662264
2419.04,0.02418312
2430.03,0.02815084
2441.01,0.01046317
2452,0.04357557
2462.98,0.03237402
2473.97,-0.00794597
2484.95,0.04611808
2495.94,0.03321109
2506.92,0.00810541
2517.91,0.020278
2528.89,0.01493942
2539.88,0.05998782
2550.87,0.06289076
2561.85,0.08682355
2572.84,0.06079868
2583.82,0.04780888
2594.81,0.04411153
2605.79,0.07685687
2616.78,0.07121325
2627.76,0.0532878
2638.75,0.05590273
2649.73,0.07676948
2660.72,0.0157797
2671.7,0.04301074
2682.69,0.0519703
2693.68,0.07065438
2704.66,0.05325476
2715.65,0.04933489
2726.63,0.124558
2737.62,0.03790127
2748.6,0.03444005
2759.59,-0.00203025
2770.57,0.01943031
2781.56,-0.01791846
2792.54,0.01929897
2803.53,0.06759721
2814.51,0.04263877
2825.5,0.07108499
2836.48,0.123844
2847.47,0.364745
2858.46,0.325954
2869.44,0.29479
2880.43,0.348663
2891.41,0.5920268
2902.4,0.794136
2913.38,0.743146
2924.37,0.55429
2935.35,0.344056
2946.34,0.253152
2957.32,0.243247
2968.31,0.160367
2979.29,0.293524
2990.28,0.18234
3001.26,0.241497
3012.25,0.239568
3023.24,0.372969
3034.22,0.797544
3045.21,1.12528
3056.19,1.92163
3067.18,1.2317
3078.16,0.396427
3089.15,0.264323
3100.13,0.180903
3111.12,0.285219
3122.1,0.191917
3133.09,0.225504
3144.07,0.08478681
3155.06,0.01570504
3166.05,0.246014
3177.03,0.09295632
3188.02,0.224925
3199,0.141744
3200,0.177545